trial number, correct angle (degrees), angle diff (degrees), latency (ticks)
2, 0, 41.57319, 16.90335, 22927993
2, 0, 134.5554, 37.31258, 28401148
2, 0, 70.0372, 26.77633, 18798005
2, 1, 116.2523, 26.16001, 19063560
2, 1, 56.16517, 12.63229, 16398572
2, 1, 174.1738, 20.29601, 71473673
2, 2, 62.74915, 6.575165, 25469897
2, 2, 90.13161, 4.500671, 26827693
2, 2, 77.26981, 21.1597, 24133803
2, 3, 169.9418, 16.87106, 30400234
2, 3, 64.38838, 42.14698, 18000657
2, 3, 101.1844, 9.453889, 59201558
2, 4, 95.84085, 38.73346, 17069484
2, 4, 84.62854, 52.49049, 13070202
2, 4, 45.62021, 52.09712, 25597194
2, 5, 39.30208, 2.137161, 17863347
2, 5, 123.4017, 24.19205, 16136151
2, 5, 99.3448, 6.711304, 17062244
===
2, 20, 22.399, 84531163
2, 40, -1.663174, 38133485
2, 30, -1.75905, 26537630
2, 10, 5.91088, 17602085
2, 10, 13.31588, 20400774
2, 40, -1.412739, 34665986
2, 20, 1.242907, 23996708
2, 30, -4.475065, 27525289
===
1, 0, 50.74708, 6.352444, 18801525
1, 0, 20.06734, 5.049942, 16265267
1, 0, 157.4232, 15.16632, 28666003
1, 1, 40.84317, 28.05297, 16264064
1, 1, 46.26754, 6.259033, 19067818
1, 1, 144.3045, 35.22577, 20804552
1, 2, 35.73727, 4.735352, 18933662
1, 2, 58.55118, 21.80801, 26803674
1, 2, 44.72638, 16.4921, 21999426
1, 3, 88.06882, 0.2265625, 18134217
1, 3, 84.83997, 3.717133, 30403314
1, 3, 46.58597, 1.542694, 17335699
1, 4, 28.51984, 4.840462, 17473806
1, 4, 140.7219, 11.82487, 32270689
1, 4, 94.15955, 33.08972, 18933329
1, 5, 74.36402, 0.2928009, 15468378
1, 5, 54.84509, 12.07295, 18265072
1, 5, 150.0196, 30.96774, 21199814
===
1, 40, -19.61234, 53070020
1, 30, -10.73635, 48002300
1, 10, -2.620719, 32266441
1, 10, -3.747497, 30797481
1, 40, -15.83117, 54661955
1, 20, -3.18997, 44398978
1, 30, -10.7187, 46802278
1, 20, -4.960492, 45606192
===
0, 0, 61.56533, 6.780334, 20273575
0, 0, 30.9321, 7.73674, 16267506
0, 0, 128.2024, 45.54305, 22409404
0, 1, 172.2514, 53.46777, 23999353
0, 1, 77.0493, 15.24088, 15999654
0, 1, 46.99387, 1.655479, 18397473
0, 2, 19.08362, 38.43045, 38805165
0, 2, 17.16751, 46.33133, 28262758
0, 2, 34.17303, 40.10602, 20404245
0, 3, 154.2264, 10.5475, 35203299
0, 3, 96.95942, 39.2271, 16531878
0, 3, 42.78523, 4.815002, 16400592
0, 4, 56.76389, 16.69257, 19601035
0, 4, 151.4658, 8.73877, 34800993
0, 4, 71.68027, 11.40786, 20003180
0, 5, 96.86356, 12.86896, 20399425
0, 5, 85.5126, 9.753815, 28940148
0, 5, 48.31638, 10.52946, 16130333
===
0, 30, -10.25824, 35457400
0, 40, -17.86463, 41069767
0, 40, -19.8213, 35336209
0, 20, -8.603634, 26397921
0, 10, -0.3601646, 22798456
0, 20, -6.980954, 27868836
0, 10, -0.7914162, 38399469
0, 30, -12.75765, 56270375
===
