trial number, correct angle (degrees), angle diff (degrees), latency (ticks)
0, 0, 45.19254, 8.058655, 44255345
0, 0, 63.44931, 6.43689, 28529222
0, 0, 46.65424, 29.30765, 40931094
0, 1, 40.53381, 13.97572, 25736331
0, 1, 73.34682, 10.09888, 21067853
0, 1, 161.0726, 78.4487, 24001261
0, 2, 99.95193, 10.04742, 22540292
0, 2, 87.87262, 33.95203, 23195122
0, 2, 47.58064, 13.13304, 25337876
0, 3, 50.19473, 31.32913, 21601040
0, 3, 35.69151, 14.3158, 17732672
0, 3, 121.7485, 10.41068, 19734353
0, 4, 75.92126, 154.6782, 28004037
0, 4, 141.0235, 161.3795, 5333769
0, 4, 109.4506, 85.07399, 16534215
0, 5, 42.06402, 2.898449, 14667361
0, 5, 150.7031, 3.106339, 31601812
0, 5, 92.80572, 47.298, 29065496
===
0, 30, -17.0668, 63330075
0, 20, -9.633128, 42399543
0, 40, -23.66796, 56529489
0, 10, -5.537875, 27332206
0, 10, -9.741494, 8129168
0, 30, -19.33733, 46800085
0, 40, -27.52388, 49204712
0, 20, -11.18309, 37732396
===
1, 0, 162.261, 10.7493, 28003638
1, 0, 63.4969, 20.19921, 18404034
1, 0, 26.06373, 0.6213379, 18799229
1, 1, 102.5547, 57.15823, 28270812
1, 1, 92.77597, 2.232269, 17865134
1, 1, 39.69395, 16.56293, 17998019
1, 2, 44.12548, 3.355713, 18799236
1, 2, 44.8207, 1.77861, 21601732
1, 2, 133.6227, 47.39023, 24934058
1, 3, 49.31299, 11.20105, 20666315
1, 3, 50.97766, 1.9133, 25335710
1, 3, 67.13498, 11.28479, 29327238
1, 4, 150.8729, 16.93872, 26003703
1, 4, 97.94537, 18.3974, 23730922
1, 4, 41.65796, 0.3011856, 13861347
1, 5, 62.52614, 15.44121, 19324336
1, 5, 167.0104, 157.2715, 11731594
1, 5, 61.44579, 139.7447, 30395805
===
1, 20, -8.241045, 45201219
1, 10, -5.456145, 29600782
1, 30, -12.40747, 55734573
1, 20, -11.46786, 43200889
1, 40, -17.83887, 66797387
1, 30, -15.20472, 56269225
1, 10, -5.430896, 33204653
1, 40, -17.1627, 70794957
===
2, 0, 161.4874, 13.05196, 29071154
2, 0, 54.36386, 0.6584702, 23195522
2, 0, 32.76904, 49.40242, 19462185
2, 1, 72.41576, 108.4731, 32534166
2, 1, 150.8355, 88.57495, 25331041
2, 1, 53.08679, 10.18333, 22000845
2, 2, 57.05141, 18.68941, 9198591
2, 2, 116.527, 159.1926, 13065359
2, 2, 14.54073, 5.83099, 24394896
2, 3, 40.37106, 71.18176, 31200239
2, 3, 17.83043, 100.793, 30400976
2, 3, 135.7952, 36.59827, 30926926
2, 4, 103.2931, 129.8531, 21202582
2, 4, 36.9122, 90.36076, 17333403
2, 4, 92.64651, 59.17908, 22664812
2, 5, 44.87317, 12.21475, 21602390
2, 5, 40.12778, 8.859192, 17067000
2, 5, 64.53543, 65.90848, 42265248
===
2, 20, 2.279892, 33196619
2, 10, 4.460592, 26536267
2, 40, -9.454582, 36540702
2, 20, 1.680872, 31201381
2, 30, -6.726692, 32663470
2, 30, -8.110167, 33998276
2, 10, -0.7138386, 25861323
2, 40, -7.680531, 41064148
===
