trial number, correct angle (degrees), angle diff (degrees), latency (ticks)
1, 0, 40.69451, 4.557232, 69994874
1, 0, 76.27516, 44.08581, 54668266
1, 0, 169.2957, 37.98492, 54799950
1, 1, 111.3637, 5.452301, 39867610
1, 1, 36.69932, 14.3184, 27865203
1, 1, 45.5457, 25.73517, 31600984
1, 2, 41.83075, 6.272644, 77071246
1, 2, 50.21643, 10.25357, 34934755
1, 2, 59.79291, 14.75787, 40798307
1, 3, 118.0626, 120.2778, 3199488
1, 3, 10.28052, 44.30229, 3866542
1, 3, 63.04819, 132.7269, 11196633
1, 4, 127.7437, 5.563934, 33338290
1, 4, 28.27744, 3.451523, 28531866
1, 4, 86.51779, 30.59704, 25200799
1, 5, 47.21359, 11.0786, 26404457
1, 5, 142.0309, 6.975647, 39601280
1, 5, 83.54564, 3.058121, 45729753
===
1, 30, -10.09424, 81862653
1, 10, -5.646111, 43065762
1, 20, -9.421512, 42136678
1, 40, -18.79564, 74003505
1, 40, -18.40654, 68132519
1, 30, -18.45631, 68004143
1, 10, -4.388532, 25192542
1, 20, -10.40892, 44666490
===
2, 0, 37.26466, 29.58041, 26535270
2, 0, 44.04474, 61.31839, 90002452
2, 0, 136.1224, 4.993179, 24264961
2, 1, 31.1796, 13.11836, 44933000
2, 1, 68.76705, 49.62912, 32002476
2, 1, 167.5344, 6.968872, 29867580
2, 2, 41.97479, 15.81012, 31596852
2, 2, 57.45099, 9.213898, 23866037
2, 2, 72.02722, 17.67813, 24269648
2, 3, 143.9099, 26.45941, 31070506
2, 3, 88.90205, 68.16061, 36935608
2, 3, 44.79575, 8.431931, 31997639
2, 4, 147.0902, 20.29575, 57602112
2, 4, 65.73938, 67.58311, 23200381
2, 4, 74.81808, 1.616173, 38536261
2, 5, 91.92032, 48.48151, 29869834
2, 5, 40.86815, 29.78899, 22935238
2, 5, 84.85715, 34.11777, 25994513
===
2, 10, 23.2104, 64799748
2, 40, -11.46599, 50002801
2, 20, 10.46719, 42265192
2, 40, -6.199707, 51068240
2, 30, -4.350975, 38670018
2, 20, 7.362125, 32421102
2, 30, 9.727383, 47063786
2, 10, 9.469206, 23733230
===
0, 0, 24.33321, 5.509239, 19599997
0, 0, 49.32863, 1.093378, 17068347
0, 0, 113.9287, 2.948166, 116003013
0, 1, 131.4883, 2.931015, 22534740
0, 1, 27.88168, 8.734692, 18005789
0, 1, 79.06371, 48.15751, 19335179
0, 2, 53.93307, 24.50223, 28003620
0, 2, 56.22784, 4.950531, 25732392
0, 2, 74.72888, 11.87741, 25860942
0, 3, 167.2993, 14.4624, 26940798
0, 3, 26.42514, 9.786053, 28535487
0, 3, 67.38811, 0.6146984, 23732316
0, 4, 28.4113, 30.96231, 24666985
0, 4, 102.2829, 19.58719, 23063352
0, 4, 108.6715, 47.21884, 27599807
0, 5, 77.74875, 3.810959, 22796896
0, 5, 152.6123, 20.14828, 22404486
0, 5, 53.43523, 21.93536, 30664761
===
0, 40, -22.35527, 46667821
0, 30, -17.78772, 42928207
0, 40, -28.8266, 55865527
0, 20, -13.7768, 35734664
0, 30, -16.56633, 47997076
0, 20, -10.18106, 32670651
0, 10, 4.422729, 27070321
0, 10, -3.365603, 25201646
===
