trial number, correct angle (degrees), angle diff (degrees), latency (ticks)
0, 0, 117.8471, 14.4207, 137336938
0, 0, 31.53909, 4.694244, 32133762
0, 0, 51.78978, 32.57526, 28145225
0, 1, 34.45658, 13.17963, 27737061
0, 1, 79.35815, 56.00935, 51333682
0, 1, 172.0936, 12.89548, 47464336
0, 2, 44.19354, 11.38235, 54003338
0, 2, 44.94647, 13.5788, 43738083
0, 2, 63.69901, 8.634216, 28131805
0, 3, 59.76344, 32.72418, 19604222
0, 3, 169.1173, 18.67534, 43332310
0, 3, 113.2137, 1.382111, 33737346
0, 4, 168.9358, 1.525665, 59072989
0, 4, 63.2636, 1.583511, 31870441
0, 4, 65.09729, 6.521301, 35065789
0, 5, 79.40439, 21.24524, 21871307
0, 5, 88.46344, 6.269318, 23734791
0, 5, 60.08437, 19.29597, 28135007
===
0, 10, 3.957293, 35329086
0, 30, -1.442524, 53733975
0, 30, 14.17746, 66939467
0, 40, 17.29643, 68940929
0, 40, 28.95998, 82405816
0, 20, 2.09367, 36400706
0, 10, 0.3855152, 30138244
0, 20, 7.86426, 41734240
===
2, 0, 41.01168, 2.8265, 85608313
2, 0, 33.32687, 34.41678, 29334193
2, 0, 129.3763, 55.47322, 38401998
2, 1, 25.89624, 17.02575, 19467983
2, 1, 84.4926, 112.9728, 61072155
2, 1, 140.0278, 40.00526, 34668357
2, 2, 39.65094, 4.345184, 22666457
2, 2, 60.88013, 13.72348, 24260987
2, 2, 34.61719, 22.34528, 39875347
2, 3, 179.7289, 11.67078, 38667386
2, 3, 44.79263, 17.51595, 24667205
2, 3, 64.38107, 12.06191, 58802629
2, 4, 81.84537, 37.36359, 24930780
2, 4, 53.71252, 15.69447, 24929465
2, 4, 88.38434, 74.83444, 42138874
2, 5, 51.67477, 12.39859, 15200834
2, 5, 147.3891, 22.56882, 33730121
2, 5, 82.95217, 14.90101, 27602303
===
2, 40, -14.41499, 47871615
2, 10, -0.546093, 24400179
2, 40, 13.82058, 40127970
2, 30, 44.52966, 45869253
2, 10, -0.06214142, 20930269
2, 20, 12.80048, 29869194
2, 30, 33.60942, 40002014
2, 20, 29.37785, 35467265
===
1, 0, 19.29954, 5.477833, 41866401
1, 0, 61.23928, 62.7231, 29333459
1, 0, 148.1768, 36.37653, 36665650
1, 1, 51.19172, 10.14811, 16665897
1, 1, 28.35917, 2.725914, 25199200
1, 1, 120.0371, 25.72569, 30935866
1, 2, 29.01895, 12.8714, 26266957
1, 2, 30.6741, 3.206512, 22803546
1, 2, 48.54749, 4.953766, 26537166
1, 3, 79.18896, 62.97688, 17871238
1, 3, 69.93666, 6.375488, 27866040
1, 3, 69.33569, 17.60164, 32401458
1, 4, 22.66985, 5.48711, 19604481
1, 4, 73.48696, 71.72906, 47603092
1, 4, 129.968, 37.48907, 24934588
1, 5, 51.34438, 30.65417, 20934856
1, 5, 122.0663, 4.047699, 28803009
1, 5, 98.69726, 9.93763, 26803298
redoing 4
1, 3, 82.01678, 2.77597, 22133860
1, 3, 78.10046, 0.7936401, 20533410
1, 3, 59.30565, 12.63641, 21867353
===
1, 20, 1.819256, 50799595
1, 10, -1.248424, 33867068
1, 30, 0.1062393, 68121840
1, 30, 2.124687, 70800927
1, 40, -6.851196, 70004664
1, 20, -2.272573, 49331966
1, 40, -12.42626, 65601280
1, 10, -1.51562, 933201
===
