trial number, correct angle (degrees), angle diff (degrees), latency (ticks)
0, 0, 51.22678, 18.05865, 25855963
0, 0, 66.04327, 17.32938, 37471309
0, 0, 52.31711, 6.608429, 40805410
0, 1, 52.45558, 27.40689, 61870202
0, 1, 69.64249, 23.84984, 42802932
0, 1, 177.6629, 23.54391, 54668477
0, 2, 90.97879, 27.82535, 31468187
0, 2, 86.01645, 6.155762, 37730156
0, 2, 43.12564, 30.44896, 27198432
0, 3, 33.84231, 26.49405, 52139508
0, 3, 55.59271, 10.04049, 28134753
0, 3, 154.8399, 11.54803, 29999786
0, 4, 86.43506, 24.3751, 20269047
0, 4, 62.39217, 9.177608, 27600734
0, 4, 151.2195, 26.91022, 27336236
0, 5, 14.20477, 23.66958, 23871861
0, 5, 115.1753, 9.161743, 30935436
0, 5, 65.30387, 7.445282, 33201124
===
0, 40, 14.31798, 87329686
0, 20, 5.667244, 46137056
0, 30, 9.035896, 67999750
0, 20, 4.145409, 47467876
0, 40, 7.034138, 67878784
0, 10, -3.596035, 32131023
0, 10, -1.901698, 18666787
0, 30, -12.47628, 44530626
===
1, 0, 160.2036, 18.13226, 34937539
1, 0, 67.66988, 0.88097, 45480327
1, 0, 28.81974, 8.950123, 21601226
1, 1, 69.44865, 10.06631, 29469082
1, 1, 74.95175, 0.2372742, 42004600
1, 1, 52.79041, 1.714279, 26667885
1, 2, 64.71565, 13.70039, 29338103
1, 2, 31.97493, 2.558754, 28134708
1, 2, 116.0285, 39.59523, 34400162
1, 3, 41.34753, 44.4794, 32934865
1, 3, 44.44287, 70.13917, 39064687
1, 3, 65.96121, 102.0176, 41335600
1, 4, 139.3272, 0.7932587, 37741024
1, 4, 82.7384, 10.54565, 23999872
1, 4, 42.61478, 4.092434, 21337334
1, 5, 39.16005, 45.14218, 31203088
1, 5, 135.0823, 0.3764954, 33437154
1, 5, 84.80299, 2.430328, 29735933
===
1, 20, -11.36307, 60534074
1, 30, -12.07349, 68666854
1, 10, -6.612314, 40270844
1, 10, -6.013641, 37197468
1, 20, -6.390922, 56138552
1, 30, -17.51402, 60133825
1, 40, -18.60361, 67200916
1, 40, -20.07411, 69067967
===
2, 0, 167.8301, 162.0783, 33735044
2, 0, 63.58957, 9.395355, 23735578
2, 0, 29.4291, 50.53906, 18129308
2, 1, 70.75088, 15.42803, 28133912
2, 1, 150.9899, 123.1659, 27466901
2, 1, 52.30377, 18.58041, 21204517
2, 2, 88.82774, 3.008476, 35607098
2, 2, 141.8969, 6.15065, 58270840
2, 2, 38.73199, 7.67255, 24270677
2, 3, 84.71113, 38.96702, 24405918
2, 3, 48.51575, 20.3413, 24534618
2, 3, 168.144, 31.67929, 34133415
2, 4, 96.75317, 1.670349, 37065844
2, 4, 43.41269, 37.78932, 27599669
2, 4, 86.06519, 27.92578, 32537472
2, 5, 59.86031, 11.38666, 24668095
2, 5, 57.56917, 19.03738, 28000519
2, 5, 82.05881, 6.781647, 26402502
===
2, 20, -4.631973, 52796491
2, 20, -13.72582, 35332958
2, 40, -3.412266, 64804108
2, 40, 15.44706, 77605123
2, 10, 2.78638, 28533500
2, 30, 26.09438, 53870913
2, 10, 12.35719, 27203947
2, 30, 29.51738, 52794218
===
