trial number, correct angle (degrees), angle diff (degrees), latency (ticks)
1, 0, 51.28085, 3.694679, 33056461
1, 0, 77.08081, 2.488159, 29469723
1, 0, 97.47134, 52.42229, 23734502
1, 1, 43.40385, 9.948303, 65606208
1, 1, 129.0394, 18.17386, 47336741
1, 1, 74.58983, 4.698723, 21735201
1, 2, 23.25481, 5.823105, 27740625
1, 2, 84.6264, 2.366913, 22135254
1, 2, 135.1622, 13.726, 45469538
1, 3, 164.0517, 11.19855, 25065502
1, 3, 42.71536, 19.51106, 20936865
1, 3, 86.72597, 4.405888, 24275184
1, 4, 77.42615, 2.902313, 20669457
1, 4, 53.76717, 1.687775, 16668483
1, 4, 58.57088, 17.36755, 19616317
1, 5, 40.41583, 8.038574, 21201990
1, 5, 51.16412, 17.67416, 29337996
1, 5, 23.39285, 0.828949, 43332985
===
1, 10, -1.186233, 34808169
1, 30, -9.376514, 44404160
1, 10, -2.096481, 30664953
1, 20, -7.350622, 35203701
1, 40, -16.66963, 51068983
1, 20, -8.728696, 36806743
1, 30, -12.84663, 43041402
1, 40, -19.1285, 56138659
===
0, 0, 45.88605, 0.09655762, 25067854
0, 0, 48.05731, 2.419586, 86542507
0, 0, 63.6055, 4.652649, 42533852
0, 1, 70.31616, 44.11429, 37999344
0, 1, 176.8476, 9.009155, 40670472
0, 1, 53.4433, 4.336952, 28133725
0, 2, 91.45148, 32.2648, 28930683
0, 2, 78.43338, 22.11639, 26269485
0, 2, 51.65686, 28.04671, 24802857
0, 3, 43.16863, 75.44202, 31724600
0, 3, 42.18159, 15.43788, 20800528
0, 3, 135.5507, 40.97282, 36399718
0, 4, 42.00153, 6.809307, 21202361
0, 4, 71.30764, 5.653656, 18932200
0, 4, 171.6867, 14.15369, 33467963
0, 5, 38.93667, 7.111439, 19733059
0, 5, 96.81226, 29.17657, 21468419
0, 5, 149.1092, 20.65051, 32270186
===
0, 40, -17.064, 68005211
0, 20, -4.34788, 32535784
0, 20, -8.913304, 27998533
0, 30, -5.022367, 40799470
0, 30, -13.32742, 33863871
0, 40, -13.7796, 48400016
0, 10, -2.827586, 23602634
0, 10, -5.487113, 24403322
===
2, 0, 155.9014, 19.36551, 36266765
2, 0, 55.43676, 23.46121, 25473989
2, 0, 21.1764, 7.598957, 19201905
2, 1, 93.46259, 54.09393, 36806366
2, 1, 84.49316, 37.19247, 29731278
2, 1, 45.41711, 45.06944, 23335930
2, 2, 53.8705, 44.68646, 41465669
2, 2, 148.3674, 21.47443, 34934607
2, 2, 46.19355, 7.474312, 18403105
2, 3, 27.0528, 9.945313, 24801175
2, 3, 45.12112, 13.01367, 23468400
2, 3, 28.52509, 7.286102, 23332083
2, 4, 30.92984, 43.75144, 21602111
2, 4, 139.3567, 85.81155, 26001519
2, 4, 86.35398, 137.1491, 20669516
2, 5, 87.02553, 10.00047, 20670552
2, 5, 57.00793, 23.75299, 29734642
2, 5, 122.6198, 15.3884, 21597247
===
2, 20, -0.5925064, 40268159
2, 40, 5.92654, 45734076
2, 10, 6.636148, 23996292
2, 10, 10.2993, 23063947
2, 30, 40.43785, 43868298
2, 30, 13.68314, 37731486
2, 40, 53.1189, 53203716
2, 20, 12.26604, 27334925
===
