trial number, correct angle (degrees), angle diff (degrees), latency (ticks)
1, 0, 49.65671, 14.44739, 134656869
1, 0, 43.75311, 14.89493, 100541866
1, 0, 62.00485, 16.21368, 46263913
1, 1, 83.36429, 10.42318, 60540028
1, 1, 25.34925, 2.966724, 52540510
1, 1, 178.3798, 2.928314, 61604555
1, 2, 82.58612, 17.95605, 42272649
1, 2, 60.19438, 8.566437, 51475524
1, 2, 75.27225, 23.71382, 54005905
1, 3, 71.62928, 5.521133, 22001015
1, 3, 154.5003, 4.463715, 26806260
1, 3, 54.46426, 29.14186, 44936287
1, 4, 90.41359, 82.00503, 16798351
1, 4, 16.1124, 6.622452, 26399240
1, 4, 74.79967, 34.7749, 62802425
1, 5, 68.38303, 3.140991, 16807205
1, 5, 127.3394, 24.18147, 23205690
1, 5, 20.21958, 13.58711, 29463738
===
1, 30, -2.644054, 103726719
1, 10, -2.180192, 53599384
1, 10, -2.967524, 37070875
1, 30, -8.325771, 63071300
1, 20, -4.929921, 58674682
1, 40, -9.056442, 87873203
1, 20, -6.334055, 50144836
1, 40, -10.64149, 83203072
===
0, 0, 56.62545, 11.16734, 37065067
0, 0, 81.85627, 18.61951, 54004306
0, 0, 166.0859, 153.8358, 23071330
0, 1, 162.1586, 18.62323, 33468677
0, 1, 49.53102, 12.31351, 22933678
0, 1, 94.39583, 20.81554, 31999645
0, 2, 112.2828, 13.64896, 23603514
0, 2, 30.4561, 74.82463, 57199000
0, 2, 116.2771, 20.34674, 60134758
0, 3, 42.2254, 5.513428, 29868416
0, 3, 45.46915, 3.4198, 23909393
0, 3, 60.71588, 10.16455, 25598998
0, 4, 66.07581, 47.24994, 17737903
0, 4, 174.0045, 0.6922607, 24402555
0, 4, 52.54452, 7.840233, 37600395
0, 5, 155.1513, 84.84093, 40264796
0, 5, 82.77708, 4.136734, 31066345
0, 5, 17.92932, 83.37157, 45601870
===
0, 30, -11.13766, 57602295
0, 10, -1.511045, 34004548
0, 40, -22.07677, 52796907
0, 20, -7.385228, 39599785
0, 10, -2.404011, 37069550
0, 30, -14.73658, 40271313
0, 20, -7.782882, 40877599
0, 40, -15.02776, 56403251
===
2, 0, 36.49094, 1.848995, 17999635
2, 0, 63.25256, 22.93236, 13064086
2, 0, 165.1065, 10.22836, 21330846
2, 1, 170.3329, 37.17457, 49997647
2, 1, 62.27614, 32.86926, 48534407
2, 1, 52.37126, 2.535019, 28935753
2, 2, 71.79222, 3.633453, 28929476
2, 2, 58.60664, 26.50706, 16930767
2, 2, 70.06799, 4.167419, 32274576
2, 3, 8.641846, 3.112823, 19066171
2, 3, 18.73508, 11.42438, 39594339
2, 3, 33.47693, 1.380524, 25070083
2, 4, 73.13982, 15.78194, 20670938
2, 4, 21.5847, 13.29855, 15869462
2, 4, 166.845, 36.71448, 26806510
2, 5, 162.1028, 38.98857, 24396184
2, 5, 96.32685, 18.61527, 21069060
2, 5, 43.21636, 30.19466, 25066920
===
2, 20, -9.712371, 31222032
2, 30, -19.564, 27602508
2, 30, -19.78158, 44931852
2, 20, -14.30835, 39199712
2, 10, -6.255563, 30403134
2, 40, -25.88952, 63596508
2, 10, -4.863016, 30265956
2, 40, -27.79223, 49867289
===
