trial number, correct angle (degrees), angle diff (degrees), latency (ticks)
1, 0, 53.79999, 50.63499, 69059667
1, 0, 94.00383, 23.27954, 118807935
1, 0, 3.503479, 15.02991, 41599635
1, 1, 33.82504, 0.6687317, 33602599
1, 1, 48.46257, 38.83755, 38803332
1, 1, 160.6218, 38.53119, 74277871
1, 2, 87.54593, 11.62576, 48800411
1, 2, 85.75854, 2.56955, 36130648
1, 2, 34.20729, 18.34814, 29996188
1, 3, 73.71973, 2.562332, 24662086
1, 3, 167.6264, 25.29697, 26528567
1, 3, 57.07872, 6.683533, 25599589
1, 4, 25.24403, 5.257732, 25736395
1, 4, 64.51016, 19.77059, 22800993
1, 4, 177.5407, 12.04419, 37338463
1, 5, 22.7229, 15.35597, 23196930
1, 5, 83.70276, 35.93936, 51467863
1, 5, 125.5057, 17.65343, 48134021
redoing 1
1, 0, 48.22464, 26.87061, 41469536
1, 0, 75.33397, 32.41995, 32936717
1, 0, 109.0241, 21.72226, 40536604
===
1, 20, -2.11804, 50524517
1, 40, -8.137234, 61203797
1, 30, -11.54656, 52670094
1, 10, -1.978133, 26001148
1, 20, -4.763663, 31864506
1, 10, -4.652294, 25998934
1, 30, 1.279173, 54265730
1, 40, -0.3903122, 71199415
===
2, 0, 173.5086, 1.441467, 64805085
2, 0, 74.9272, 69.84775, 52535473
2, 0, 48.6952, 19.19704, 38534418
2, 1, 71.54726, 31.1404, 31997674
2, 1, 45.29428, 38.01645, 44272634
2, 1, 156.9074, 51.59106, 25199791
2, 2, 25.09225, 0.7153664, 21995475
2, 2, 135.0634, 12.81332, 38399573
2, 2, 86.57153, 169.0601, 32271936
2, 3, 71.86319, 6.953888, 34002158
2, 3, 73.63586, 26.49818, 28270419
2, 3, 50.98579, 55.08115, 33729417
2, 4, 59.20125, 107.5979, 48936395
2, 4, 113.1969, 31.46111, 31332708
2, 4, 32.61756, 15.84811, 24004345
2, 5, 7.872772, 82.6861, 33471718
2, 5, 19.67169, 161.1424, 47334972
2, 5, 4.677704, 85.50169, 37336058
===
2, 20, 20.9737, 37463800
2, 30, 23.11178, 57203410
2, 40, 41.37228, 68142540
2, 30, 32.02457, 46938580
2, 10, 12.7135, 26133725
2, 20, 21.95181, 38269494
2, 40, 46.29022, 66405239
2, 10, 12.70644, 23595375
===
0, 0, 34.66093, 18.04997, 18533106
0, 0, 137.6502, 43.51701, 31868158
0, 0, 45.07974, 20.6058, 22937804
0, 1, 5.343323, 59.16278, 40004732
0, 1, 13.58514, 43.59131, 43869189
0, 1, 4.457764, 79.54659, 31594541
0, 2, 134.3783, 108.4593, 20666886
0, 2, 74.20905, 77.58678, 50534544
0, 2, 169.2459, 36.35167, 51472292
0, 3, 174.1893, 130.3584, 20000295
0, 3, 47.47508, 7.229416, 16796484
0, 3, 83.32259, 22.69225, 44663848
0, 4, 61.6447, 116.0999, 111475222
0, 4, 55.72966, 25.3591, 27868288
0, 4, 56.69133, 31.79683, 26272770
0, 5, 58.22368, 23.55992, 19603068
0, 5, 161.5837, 26.01312, 28136669
0, 5, 66.5765, 13.60801, 25733202
===
0, 30, -10.84995, 42402282
0, 20, -8.873657, 31336564
0, 40, -9.520254, 59067157
0, 10, -2.074472, 18933403
0, 40, -14.21498, 57468588
0, 20, -10.78739, 29865601
0, 30, -8.718122, 47600047
0, 10, -3.52732, 22260796
===
