trial number, correct angle (degrees), angle diff (degrees), latency (ticks)
2, 0, 34.49197, 10.72729, 19863064
2, 0, 71.68395, 8.971975, 27203080
2, 0, 173.1239, 65.59648, 23197157
2, 1, 99.26447, 15.23428, 21598153
2, 1, 35.65843, 25.25436, 24404757
2, 1, 93.05215, 11.19092, 23999803
2, 2, 37.68217, 7.3974, 19600061
2, 2, 46.41637, 3.236237, 37068987
2, 2, 136.6154, 15.48325, 31875567
2, 3, 49.95139, 44.91321, 26796981
2, 3, 58.1492, 12.34723, 23601206
2, 3, 73.67105, 14.06525, 23065440
2, 4, 151.3911, 20.15736, 28402983
2, 4, 91.72417, 12.35964, 26135144
2, 4, 39.42271, 21.85006, 22671186
2, 5, 133.9466, 30.09109, 27333225
2, 5, 44.47165, 34.70216, 23996293
2, 5, 82.40305, 1.730263, 20670457
===
2, 40, -5.271626, 56263928
2, 20, -7.998964, 31331229
2, 20, -5.43262, 35597793
2, 30, -5.007385, 40797057
2, 10, -2.797119, 24666207
2, 10, -4.095195, 21468901
2, 30, -9.719305, 40931373
2, 40, -9.105127, 47995297
===
0, 0, 49.64215, 5.15181, 36930960
0, 0, 39.59008, 13.60156, 31865835
0, 0, 139.1742, 15.55624, 24799204
0, 1, 76.11415, 23.5349, 25339156
0, 1, 148.8738, 46.03445, 27205433
0, 1, 53.20709, 132.6785, 25869214
0, 2, 136.4899, 19.98045, 36399755
0, 2, 28.16909, 10.5438, 23604899
0, 2, 82.44547, 8.65506, 22400160
0, 3, 160.7596, 32.43312, 23327855
0, 3, 24.54324, 0.6070023, 23199461
0, 3, 64.60788, 5.427835, 32132379
0, 4, 49.35388, 10.44041, 18933963
0, 4, 84.11975, 20.88501, 26268888
0, 4, 90.29007, 19.51669, 19868550
0, 5, 28.00638, 3.156769, 36007823
0, 5, 31.28885, 5.78949, 22267406
0, 5, 46.05377, 1.907745, 32265952
===
0, 30, -6.225998, 46266539
0, 20, 0.6754436, 36268080
0, 40, -28.19259, 40266432
0, 30, 1.314556, 42131898
0, 10, 5.000879, 28933798
0, 40, 1.018486, 54131057
0, 10, 4.63808, 30131101
0, 20, 3.805885, 39467659
===
1, 0, 43.29669, 1.324219, 62398835
1, 0, 44.75095, 12.12347, 30003674
1, 0, 70.91327, 4.486572, 24535795
1, 1, 46.34831, 14.1566, 28664346
1, 1, 137.5016, 11.72656, 19333917
1, 1, 94.59219, 7.940285, 22797094
1, 2, 41.21919, 5.636292, 24932922
1, 2, 101.3573, 3.351074, 29735827
1, 2, 108.364, 3.181, 20533838
1, 3, 135.4132, 16.80293, 34668855
1, 3, 69.03856, 11.27647, 26403297
1, 3, 23.26184, 7.37587, 20665284
1, 4, 76.58391, 12.45012, 25598479
1, 4, 40.46954, 5.092724, 22270949
1, 4, 169.2488, 0.9526062, 29598083
1, 5, 32.91778, 11.82269, 23996264
1, 5, 90.42516, 6.818718, 27993909
1, 5, 144.6287, 23.12764, 31600256
===
1, 20, -2.859562, 52119139
1, 40, -3.297344, 102535613
1, 10, -0.144455, 44537676
1, 10, -0.9137564, 41333139
1, 20, -2.695061, 57199838
1, 40, -3.386986, 93466377
1, 30, -6.049473, 65994461
1, 30, -3.840349, 70669526
===
