trial number, correct angle (degrees), angle diff (degrees), latency (ticks)
2, 0, 40.92967, 18.01555, 226536508
2, 0, 50.17945, 122.5678, 44807958
2, 0, 136.1262, 12.42867, 40670726
2, 1, 79.49339, 158.8861, 97069914
2, 1, 83.06416, 55.93988, 54271734
2, 1, 99.75383, 57.20319, 33865641
2, 2, 176.2554, 66.65688, 68803938
2, 2, 56.34504, 0.204216, 21200244
2, 2, 113.0664, 3.062637, 27197152
2, 3, 174.5977, 73.40581, 24666980
2, 3, 43.02985, 14.19864, 23066401
2, 3, 71.76312, 49.52085, 33999542
2, 4, 71.63014, 31.95129, 40798433
2, 4, 69.1772, 8.730957, 28266982
2, 4, 74.61082, 27.67462, 32932973
2, 5, 86.96471, 1.048431, 30538209
2, 5, 133.9232, 43.24017, 26130064
2, 5, 39.92006, 3.696793, 23998909
===
2, 30, -11.88718, 114800205
2, 20, -12.58777, 33196782
2, 10, -8.273433, 20533131
2, 10, -3.963278, 27066369
2, 40, -23.78547, 43602827
2, 30, -16.0785, 36132443
2, 20, -14.20946, 36267142
2, 40, -17.35976, 52640341
===
1, 0, 41.50958, 1.773834, 33468414
1, 0, 46.07245, 7.364777, 33603381
1, 0, 61.87662, 6.869263, 51198490
1, 1, 126.4884, 35.85753, 27331425
1, 1, 46.1133, 42.31567, 33598800
1, 1, 32.03322, 13.04063, 32802610
1, 2, 10.94862, 38.84262, 24667337
1, 2, 117.3117, 16.127, 29998720
1, 2, 117.5595, 3.256622, 33466307
1, 3, 37.60564, 17.45667, 28801294
1, 3, 124.59, 32.08878, 26802350
1, 3, 99.38832, 32.6268, 35339245
1, 4, 79.76972, 26.56688, 37333281
1, 4, 44.37243, 40.42423, 35869093
1, 4, 169.9158, 46.79846, 44136357
1, 5, 33.68549, 14.71423, 22536661
1, 5, 88.90984, 2.944092, 24269904
1, 5, 143.6428, 24.64406, 32399468
===
1, 10, -3.037569, 36131905
1, 10, -2.983531, 36669785
1, 30, -15.80397, 55202711
1, 20, -7.861805, 55201943
1, 40, -20.28452, 67737383
1, 20, -6.082033, 57869360
1, 30, -17.36811, 58402929
1, 40, -20.65013, 64000253
===
0, 0, 59.89914, 1.683445, 28270781
0, 0, 103.2061, 119.0677, 27202940
0, 0, 146.4738, 61.77518, 23603432
0, 1, 149.5497, 49.43427, 34801740
0, 1, 69.42473, 14.6701, 26403049
0, 1, 55.71442, 25.40559, 25998093
0, 2, 45.12535, 4.799622, 71872225
0, 2, 154.9628, 5.144836, 48407481
0, 2, 96.52928, 132.7607, 66266306
0, 3, 114.0112, 11.23871, 32672429
0, 3, 119.8423, 39.16879, 26665206
0, 3, 25.30963, 49.32709, 23199443
0, 4, 132.294, 53.80443, 53068240
0, 4, 44.06069, 8.872864, 25598431
0, 4, 46.31701, 100.2981, 30533408
0, 5, 42.45776, 65.80943, 39337589
0, 5, 47.59363, 65.59755, 43999121
0, 5, 68.1604, 171.4325, 47869982
===
0, 30, -1.067709, 39597898
0, 10, -0.5170097, 26003343
0, 40, -11.17394, 50266717
0, 30, -5.089493, 39470185
0, 10, -0.4809647, 25196672
0, 40, -6.176151, 54387067
0, 20, -6.312041, 40266136
0, 20, -4.325061, 35999548
===
