trial number, correct angle (degrees), angle diff (degrees), latency (ticks)
2, 0, 175.7781, 71.38533, 61993250
2, 0, 83.97789, 7.910904, 35075715
2, 0, 54.3614, 77.09407, 30806364
2, 1, 90.66425, 76.36002, 47601533
2, 1, 63.69252, 161.2648, 23066631
2, 1, 144.3363, 14.20737, 46933139
2, 2, 52.22554, 158.231, 18003922
2, 2, 46.80203, 33.45384, 30532894
2, 2, 94.11662, 177.1284, 43204392
2, 3, 89.584, 15.70422, 25462099
2, 3, 108.7155, 48.63267, 25736616
2, 3, 89.65692, 20.11334, 29602030
2, 4, 43.71149, 65.15302, 27467160
2, 4, 109.5219, 50.09993, 30405422
2, 4, 25.89716, 21.54263, 26271079
2, 5, 63.84527, 3.806454, 15996730
2, 5, 177.9149, 20.01865, 28800687
2, 5, 124.0262, 3.900833, 26133309
===
2, 40, -4.472149, 58404747
2, 20, -2.67441, 34936699
2, 10, -3.45055, 19335103
2, 10, -3.102896, 18132017
2, 40, 0.3258553, 55071336
2, 30, 1.145014, 47071264
2, 30, 1.234316, 52538333
2, 20, -1.632444, 35335598
===
0, 0, 52.3891, 3.904541, 62803056
0, 0, 40.27649, 21.42218, 19467724
0, 0, 29.69388, 9.347687, 17198229
0, 1, 179.4456, 41.78951, 47733415
0, 1, 45.45405, 31.33237, 38002091
0, 1, 70.33713, 27.22597, 18791332
0, 2, 60.14996, 160.3705, 18530670
0, 2, 56.09283, 40.22742, 17333357
0, 2, 79.14803, 20.20645, 29468857
0, 3, 30.59233, 10.23863, 15468099
0, 3, 114.0904, 66.16376, 23065839
0, 3, 95.48647, 7.337875, 15065373
0, 4, 26.29111, 15.78139, 17464737
0, 4, 119.3141, 43.84795, 37868903
0, 4, 58.37705, 5.488403, 10666834
0, 5, 109.0908, 0.8305588, 16930812
0, 5, 40.79343, 9.912914, 21332621
0, 5, 150.29, 37.21123, 21604144
redoing 2
0, 1, 167.6012, 33.37541, 21334043
0, 1, 55.57794, 3.606464, 13733292
0, 1, 66.74248, 28.26988, 10801341
===
0, 10, 6.724802, 22925851
0, 30, 30.94591, 55336270
0, 30, 13.88876, 52144372
0, 40, 44.22582, 75474496
0, 20, 0.1129704, 28534268
0, 20, 18.0071, 34267904
0, 10, -1.650183, 19867220
0, 40, 68.79285, 86663643
===
1, 0, 50.99618, 49.5316, 20537506
1, 0, 14.13869, 22.71013, 18667531
1, 0, 150.5467, 1.837952, 19197921
1, 1, 34.5778, 22.48373, 13469047
1, 1, 145.0923, 6.96431, 27869564
1, 1, 71.21145, 1.091766, 12405450
1, 2, 104.0057, 8.133087, 15329905
1, 2, 87.83997, 24.39755, 28533954
1, 2, 48.30817, 19.34328, 15600691
1, 3, 44.64423, 31.59177, 24801703
1, 3, 55.71906, 24.32175, 11997682
1, 3, 39.62024, 16.48364, 18004332
1, 4, 100.534, 30.49534, 14141876
1, 4, 31.82481, 8.209824, 12399783
1, 4, 110.8758, 45.19336, 33867543
1, 5, 126.7189, 6.499969, 15072314
1, 5, 141.6082, 19.65882, 27067953
1, 5, 48.75249, 157.167, 18533271
redoing 6
1, 5, 54.49082, 11.51882, 12530835
1, 5, 42.44421, 11.46273, 13469428
1, 5, 140.6332, 10.67703, 15067426
===
1, 20, -4.304349, 43877671
1, 40, 3.342537, 86405700
1, 10, -4.442089, 20395982
1, 40, -6.39146, 58802140
1, 10, -2.690409, 20134559
1, 30, -6.976782, 41464867
1, 20, -8.343564, 34002466
1, 30, -5.39407, 52398609
===
