trial number, correct angle (degrees), angle diff (degrees), latency (ticks)
0, 0, 173.0746, 45.10635, 144396813
0, 0, 81.62917, 37.24413, 27731248
0, 0, 37.31425, 18.19405, 22937975
0, 1, 57.54977, 30.25661, 26400004
0, 1, 142.6541, 8.075592, 32805334
0, 1, 79.1313, 21.53848, 28002904
0, 2, 152.1703, 7.135391, 43871467
0, 2, 99.68756, 58.78708, 41868983
0, 2, 38.98462, 53.17837, 22397729
0, 3, 117.5868, 12.55258, 40532663
0, 3, 102.6971, 44.36066, 34804205
0, 3, 25.9435, 30.37764, 26266386
0, 4, 56.07986, 8.103905, 30399663
0, 4, 31.66898, 7.569969, 24800774
0, 4, 125.9642, 89.58113, 23467941
0, 5, 42.05823, 11.24066, 32139506
0, 5, 42.13458, 18.05261, 22666275
0, 5, 58.28354, 16.30145, 26534287
===
0, 40, -17.22573, 50264394
0, 30, -11.97529, 32400773
0, 20, -7.693511, 28403999
0, 30, -9.405529, 38002717
0, 40, -16.55195, 42670418
0, 10, -4.591147, 28668140
0, 20, -6.405347, 33859754
0, 10, 2.146607, 33064093
===
2, 0, 103.3224, 90.6933, 45738060
2, 0, 25.64692, 9.600891, 21869987
2, 0, 50.37862, 41.49772, 30266117
2, 1, 32.52887, 22.84039, 22806166
2, 1, 32.94135, 15.47849, 23603367
2, 1, 50.77713, 24.91406, 23601271
2, 2, 90.23241, 20.29763, 24269606
2, 2, 146.6697, 45.539, 57870993
2, 2, 34.39183, 23.59591, 21600649
2, 3, 70.41861, 3.98534, 27207154
2, 3, 42.97789, 0.1861534, 19471938
2, 3, 178.39, 4.931396, 33997001
2, 4, 90.19968, 23.8255, 22000517
2, 4, 47.87474, 35.93071, 29335429
2, 4, 79.88333, 12.60239, 23202699
2, 5, 67.79612, 5.746178, 25735212
2, 5, 158.6096, 1.475433, 35870844
2, 5, 61.4324, 2.655823, 42006434
===
2, 20, -19.69541, 38534335
2, 10, 9.570572, 24266487
2, 40, -12.83582, 38936231
2, 20, 8.961842, 33599734
2, 30, -0.6423359, 35603685
2, 30, -0.1327782, 35999069
2, 40, -5.135983, 34535115
2, 10, 8.890236, 24668462
===
1, 0, 53.32706, 0.8694458, 20533218
1, 0, 57.29544, 7.734344, 24395652
1, 0, 79.38649, 19.82541, 25726139
1, 1, 163.5475, 0.9674225, 31203058
1, 1, 63.50322, 11.80956, 23467310
1, 1, 30.90198, 106.36, 27995248
1, 2, 93.24661, 10.12238, 25069751
1, 2, 42.49893, 3.597443, 18664470
1, 2, 107.1852, 6.324402, 43333796
1, 3, 47.40735, 12.01932, 21207358
1, 3, 138.9305, 38.40079, 29338656
1, 3, 78.73841, 5.424408, 22267988
1, 4, 48.05879, 2.726879, 19067070
1, 4, 84.45403, 5.525387, 23465042
1, 4, 173.4962, 6.667725, 43071977
1, 5, 151.2615, 17.07677, 39066070
1, 5, 35.31537, 33.91373, 26001647
1, 5, 91.89938, 41.73799, 27068099
===
1, 20, -7.080633, 45196566
1, 10, -4.932951, 33469611
1, 30, -12.10311, 53199287
1, 40, -21.08936, 62136069
1, 40, -22.13176, 54263227
1, 10, -4.516503, 34405125
1, 30, -16.08371, 48532383
1, 20, -11.7243, 39599716
===
