trial number, correct angle (degrees), angle diff (degrees), latency (ticks)
2, 0, 51.39086, 23.26206, 70797755
2, 0, 45.02077, 147.7516, 187204015
2, 0, 13.90022, 17.89542, 6270736
2, 1, 55.99911, 37.89789, 88541030
2, 1, 55.33746, 166.2253, 78405948
2, 1, 68.27866, 18.582, 56137352
2, 2, 161.2177, 65.90189, 36670896
2, 2, 48.76014, 15.86745, 22531498
2, 2, 102.5621, 32.68334, 67066174
2, 3, 179.8631, 51.25842, 70805032
2, 3, 42.44935, 46.19919, 32400286
2, 3, 82.24715, 13.5443, 29868377
2, 4, 36.39209, 88.43413, 51598925
2, 4, 98.74866, 30.42435, 34664206
2, 4, 109.7139, 45.85352, 42804453
2, 5, 83.80361, 8.672081, 33338930
2, 5, 132.3374, 12.15048, 25199693
2, 5, 41.81204, 176.2009, 72399403
===
2, 20, 4.711353, 56530285
2, 30, 10.59951, 50935201
2, 40, 11.54201, 56800151
2, 30, 4.453014, 39463885
2, 20, 10.74957, 34532396
2, 10, 7.679361, 28531776
2, 10, 9.208786, 23865712
2, 40, -6.894032, 38539879
===
1, 0, 39.29895, 25.84973, 34009736
1, 0, 44.54758, 30.91656, 45203632
1, 0, 59.39355, 56.37959, 25734402
1, 1, 147.3902, 46.71794, 78935405
1, 1, 42.7238, 48.60444, 115471534
1, 1, 40.16084, 33.10506, 48001871
1, 2, 23.57492, 171.8055, 40400450
1, 2, 110.5693, 109.7436, 44400527
1, 2, 118.8165, 63.76128, 69199088
1, 3, 46.91084, 52.36217, 29599986
1, 3, 134.9631, 1.907593, 45202259
1, 3, 75.27676, 45.54385, 34929566
1, 4, 74.83853, 11.97615, 27465678
1, 4, 34.10654, 40.17797, 30266970
1, 4, 172.2154, 15.56631, 28529236
1, 5, 100.679, 32.60675, 26854149
1, 5, 65.36575, 54.93417, 2631071
1, 5, 40.68178, 15.28488, 21380430
===
1, 10, -0.3794413, 32264470
1, 40, -13.71208, 83466576
1, 20, -0.9586792, 66279381
1, 10, -0.06271648, 37330230
1, 20, -2.731228, 42264080
1, 30, -9.54454, 59593165
1, 40, -7.207085, 76535179
1, 30, -8.008078, 72532276
===
0, 0, 28.71797, 11.86951, 23596435
0, 0, 74.8168, 117.1203, 39336471
0, 0, 178.7446, 39.2533, 25333748
0, 1, 179.2988, 46.44257, 111604433
0, 1, 42.18584, 162.5277, 51330562
0, 1, 63.22049, 154.2177, 35335650
0, 2, 58.38669, 22.99366, 30136140
0, 2, 169.1574, 13.65288, 29603155
0, 2, 121.2449, 27.56717, 25863568
0, 3, 121.2193, 25.09662, 37603365
0, 3, 126.0231, 84.55597, 80940294
0, 3, 17.23325, 69.80518, 31068807
0, 4, 155.8014, 52.47321, 37064353
0, 4, 50.33727, 28.48609, 23998336
0, 4, 34.44491, 77.64944, 29465673
0, 5, 63.36731, 25.78485, 31467254
0, 5, 58.79539, 50.04782, 29338325
0, 5, 79.79146, 175.4312, 35064882
===
0, 40, 36.35506, 48265422
0, 20, 25.53078, 45870884
0, 40, 6.445377, 34137297
0, 20, 32.62121, 42669975
0, 10, 23.55219, 26129147
0, 30, 62.56107, 35864481
0, 30, 43.80861, 44002516
0, 10, 23.13968, 33072751
===
