trial number, correct angle (degrees), angle diff (degrees), latency (ticks)
2, 0, 42.40493, 8.699844, 18790940
2, 0, 81.72989, 17.88319, 17734378
2, 0, 177.1143, 95.43198, 24011018
2, 1, 86.03024, 20.63672, 23067003
2, 1, 55.08275, 2.018723, 17602119
2, 1, 66.53981, 9.982269, 27199385
2, 2, 47.36763, 23.08145, 24266976
2, 2, 46.32071, 34.22998, 23600288
2, 2, 138.0835, 8.002823, 18135375
2, 3, 50.03448, 7.71637, 18544683
2, 3, 49.36533, 11.19321, 23197052
2, 3, 71.96826, 15.74329, 45202995
2, 4, 156.028, 14.35188, 24662820
2, 4, 105.5892, 3.885483, 21730552
2, 4, 40.75117, 2.281174, 30267422
2, 5, 178.2445, 15.09711, 26667543
2, 5, 76.98065, 15.32527, 22932182
2, 5, 49.84489, 7.744003, 17469024
===
2, 40, -16.29877, 64669682
2, 30, -16.05815, 50938039
2, 10, -3.363759, 75737131
2, 10, -4.024555, 20400813
2, 40, -16.30512, 65986446
2, 20, -7.835903, 38261359
2, 30, -13.86993, 44937548
2, 20, -9.135045, 36267346
===
0, 0, 34.42694, 6.996368, 18000848
0, 0, 60.36208, 15.0332, 39199717
0, 0, 145.2981, 7.612961, 26673087
0, 1, 80.98757, 10.48578, 19869620
0, 1, 139.7181, 13.30377, 25869031
0, 1, 46.65536, 20.45364, 18796802
0, 2, 165.1949, 34.32617, 31463109
0, 2, 54.77349, 9.8078, 16000504
0, 2, 117.788, 13.78911, 24533640
0, 3, 148.136, 35.53069, 19335705
0, 3, 63.64657, 12.04269, 14798346
0, 3, 103.5577, 25.98451, 17068786
0, 4, 74.981, 4.843277, 21999544
0, 4, 54.93544, 33.46469, 21601431
0, 4, 61.09984, 45.6947, 20269844
0, 5, 55.75711, 3.194458, 19873228
0, 5, 69.90315, 6.743134, 23366428
0, 5, 87.77673, 7.650787, 19464639
===
0, 40, -17.37457, 42668653
0, 10, -3.028965, 21465476
0, 10, -1.999538, 19733885
0, 40, -3.779167, 52793212
0, 20, -1.117849, 38668442
0, 30, 1.492081, 42401686
0, 20, -1.203314, 36682531
0, 30, -5.971718, 36531425
===
1, 0, 39.82993, 18.97968, 27471502
1, 0, 40.54987, 2.41098, 19732159
1, 0, 59.86166, 2.078186, 29467131
1, 1, 44.95557, 60.76852, 43067660
1, 1, 134.6183, 12.36841, 23466323
1, 1, 81.58308, 13.28364, 20137986
1, 2, 69.47136, 5.211121, 14804369
1, 2, 70.53212, 7.364807, 30136616
1, 2, 81.10776, 7.246094, 18934634
1, 3, 135.5614, 5.325272, 20667873
1, 3, 44.41867, 0.1170349, 18669036
1, 3, 47.66383, 14.42164, 19210031
1, 4, 49.8847, 8.627016, 18000871
1, 4, 10.77401, 2.564457, 15601728
1, 4, 143.0723, 17.88599, 29200657
1, 5, 36.28142, 4.377583, 14669509
1, 5, 95.81547, 6.998985, 18267487
1, 5, 135.7509, 11.98235, 34662457
===
1, 30, -15.75339, 45869434
1, 10, -5.807297, 35333666
1, 20, -11.42949, 34268103
1, 40, -20.52233, 50931488
1, 30, -17.67737, 34939094
1, 40, -22.06249, 49733822
1, 10, -6.467424, 24937302
1, 20, -11.51944, 30132055
===
