trial number, correct angle (degrees), angle diff (degrees), latency (ticks)
1, 0, 49.14843, 2.625782, 58525894
1, 0, 86.99935, 20.63395, 36271728
1, 0, 175.5789, 71.25537, 44132529
1, 1, 125.5791, 5.31633, 103345898
1, 1, 32.1678, 7.339836, 22395896
1, 1, 62.67051, 8.884094, 44136757
1, 2, 34.10791, 12.12503, 21998448
1, 2, 39.77786, 2.772003, 34137145
1, 2, 53.3121, 7.223663, 39736889
1, 3, 80.29758, 2.684021, 27333194
1, 3, 49.93001, 10.42157, 23200328
1, 3, 91.70535, 36.36815, 23728949
1, 4, 142.1673, 29.95558, 32005213
1, 4, 32.22923, 11.54722, 18400822
1, 4, 93.40213, 39.77954, 29201058
1, 5, 43.5128, 22.87831, 19868746
1, 5, 139.4541, 26.27078, 30404312
1, 5, 87.69641, 10.92326, 24532306
===
1, 30, -2.717268, 71101496
1, 40, -15.47908, 58806311
1, 10, -2.470007, 32400685
1, 20, -8.129179, 36668817
1, 10, -3.461085, 31867366
1, 30, -10.23324, 48535042
1, 40, -12.10186, 68001578
1, 20, -7.156069, 35599666
===
2, 0, 40.14436, 44.80768, 43867023
2, 0, 48.52006, 25.5296, 18535398
2, 0, 131.6134, 130.7978, 36138686
2, 1, 36.08337, 16.53949, 25466421
2, 1, 72.59427, 20.35153, 24685543
2, 1, 174.0648, 46.47272, 32266534
2, 2, 33.63861, 58.68451, 19999787
2, 2, 34.90845, 14.02457, 21069315
2, 2, 56.21552, 45.71838, 28535279
2, 3, 151.1247, 128.4649, 28001251
2, 3, 96.10453, 31.75397, 23722368
2, 3, 38.65766, 138.1515, 56400444
2, 4, 141.1456, 65.39719, 25192042
2, 4, 47.10208, 84.49039, 26537318
2, 4, 81.09624, 2.078461, 28669954
2, 5, 98.82999, 21.12881, 21998717
2, 5, 45.57512, 15.32101, 26399773
2, 5, 88.51056, 50.32629, 33600829
===
2, 10, -2.458992, 26405166
2, 30, -9.828354, 30926381
2, 40, -9.423828, 35203172
2, 10, -0.05677128, 20668900
2, 40, 10.89085, 45735317
2, 20, 2.037441, 26798404
2, 30, 12.73927, 40804530
2, 20, 13.28325, 29462291
===
0, 0, 26.98707, 28.68526, 15336427
0, 0, 61.62789, 28.95856, 18266930
0, 0, 125.3734, 177.4542, 19066258
0, 1, 137.6671, 30.465, 47600844
0, 1, 31.49298, 9.940777, 24269831
0, 1, 88.54808, 112.7954, 43201503
0, 2, 23.8573, 42.16751, 21469895
0, 2, 27.41299, 27.77057, 19337880
0, 2, 43.26111, 37.68777, 18134481
0, 3, 173.047, 12.03363, 18935383
0, 3, 42.03539, 31.87228, 16265076
0, 3, 85.04228, 58.55733, 31066444
0, 4, 60.36201, 9.319519, 16534122
0, 4, 72.55228, 19.73077, 18936909
0, 4, 84.4061, 20.46692, 22938812
0, 5, 83.26055, 17.44294, 15200013
0, 5, 124.0592, 5.19809, 17736788
0, 5, 36.99821, 6.706879, 18130467
===
0, 30, -11.38921, 27730485
0, 40, -5.422997, 27602583
0, 20, -0.3150616, 29869869
0, 20, 3.617773, 24399856
0, 10, -9.48987, 22529875
0, 30, 20.84567, 31736358
0, 40, 25.56511, 29998886
0, 10, 2.631923, 19600429
===
