trial number, correct angle (degrees), angle diff (degrees), latency (ticks)
0, 0, 179.0496, 12.09448, 101996723
0, 0, 74.10275, 74.94645, 68129246
0, 0, 29.16624, 4.281796, 56671114
0, 1, 33.62752, 5.047012, 58402661
0, 1, 125.3942, 5.904785, 51467380
0, 1, 88.3847, 0.5309143, 42261466
0, 2, 161.9814, 35.85881, 30662994
0, 2, 109.9508, 5.327843, 152808173
0, 2, 50.80621, 35.39937, 27868565
0, 3, 87.76849, 19.97821, 30266979
0, 3, 79.55914, 2.569427, 40664881
0, 3, 56.34502, 12.74895, 30533486
0, 4, 58.77048, 2.894699, 28531667
0, 4, 27.42156, 1.964645, 20136726
0, 4, 116.4902, 14.12386, 30932782
0, 5, 37.67862, 3.582977, 35600420
0, 5, 40.90866, 21.61874, 30667015
0, 5, 58.81924, 27.43646, 26388509
===
0, 10, 7.945316, 108664340
0, 10, 6.322451, 54532211
0, 20, -0.5510769, 49333836
0, 20, -1.479877, 47474407
0, 30, -1.460093, 50801429
0, 30, 4.760002, 52135635
0, 40, 5.545959, 63465980
0, 40, -4.387417, 57198564
===
2, 0, 148.8811, 33.71938, 30264986
2, 0, 53.08376, 5.049164, 37730911
2, 0, 32.41554, 0.2382202, 42128950
2, 1, 57.00897, 2.006317, 42401076
2, 1, 39.13168, 1.003998, 36406245
2, 1, 60.98569, 0.4924316, 27734589
2, 2, 98.60442, 89.87833, 36402006
2, 2, 152.4445, 31.88226, 32403395
2, 2, 41.10767, 0.08325958, 22534379
2, 3, 69.28482, 10.13729, 20001649
2, 3, 38.96752, 11.2805, 49332514
2, 3, 172.1014, 5.763611, 41064773
2, 4, 94.46628, 10.82294, 27603618
2, 4, 46.07249, 83.33662, 67199214
2, 4, 88.10754, 15.86938, 21470084
2, 5, 68.1296, 22.44202, 24130146
2, 5, 156.4763, 14.94897, 24533454
2, 5, 70.79202, 55.44553, 40403801
===
2, 20, -8.498773, 28400774
2, 30, -9.165688, 32537742
2, 30, -8.229963, 38401439
2, 20, -7.588907, 26400990
2, 10, -4.061145, 19864224
2, 40, -11.84971, 44661685
2, 10, -1.825162, 20802343
2, 40, -15.26045, 41873882
===
1, 0, 48.31906, 15.1051, 23322479
1, 0, 58.43985, 28.98798, 29736459
1, 0, 67.57587, 25.37329, 35866429
1, 1, 152.2778, 1.172791, 33601688
1, 1, 59.74232, 34.09732, 31881477
1, 1, 40.29367, 13.32495, 23880418
1, 2, 84.56241, 1.140961, 26269243
1, 2, 47.92401, 66.33151, 37736449
1, 2, 93.16327, 7.513702, 18537473
1, 3, 45.68124, 30.4921, 18127918
1, 3, 136.175, 30.75327, 20664833
1, 3, 85.9405, 6.720612, 42931509
1, 4, 48.90432, 3.144093, 19201558
1, 4, 78.89201, 0.969223, 19061476
1, 4, 177.894, 7.216003, 31467936
1, 5, 142.5263, 27.4146, 31468898
1, 5, 34.34391, 16.88641, 33598322
1, 5, 86.77359, 39.56697, 24801710
===
1, 20, -3.790211, 47597719
1, 30, -11.37018, 47735800
1, 10, -1.87884, 28269701
1, 30, -7.816853, 46936639
1, 10, -1.204337, 27333755
1, 40, -15.74093, 59603805
1, 40, -11.64675, 69336588
1, 20, -6.874195, 39727938
===
