trial number, correct angle (degrees), angle diff (degrees), latency (ticks)
0, 0, 74.69306, 3.576962, 131469362
0, 0, 41.02403, 26.99336, 22792467
0, 0, 177.0428, 16.9281, 31068956
0, 1, 41.70308, 21.33522, 23068392
0, 1, 94.07438, 3.69693, 19463794
0, 1, 149.082, 23.33162, 26132459
0, 2, 35.15193, 1.716888, 21867098
0, 2, 95.46564, 16.70386, 33071407
0, 2, 95.84741, 32.56683, 40933425
0, 3, 52.63943, 19.66946, 46804004
0, 3, 45.80771, 9.988312, 26663520
0, 3, 65.24344, 6.136841, 22533821
0, 4, 64.27963, 18.99193, 20800186
0, 4, 149.3024, 12.88104, 15864261
0, 4, 73.36433, 7.727562, 20003082
0, 5, 125.1403, 154.7683, 15466398
0, 5, 56.48568, 44.86288, 26131809
0, 5, 28.76564, 0.1759033, 16930591
===
0, 10, 19.00889, 49863016
0, 20, -1.956696, 52803375
0, 20, -2.472456, 29999380
0, 40, -12.14578, 41332745
0, 30, -8.390324, 39066358
0, 30, -6.362156, 43198149
0, 40, -7.799538, 44934961
0, 10, 3.122162, 27867330
===
1, 0, 42.02678, 12.60486, 22529108
1, 0, 81.12285, 30.82533, 29597113
1, 0, 176.0785, 42.78998, 27202764
1, 1, 142.5644, 16.20065, 26006404
1, 1, 80.36951, 4.736618, 21197707
1, 1, 54.72772, 62.99138, 71337439
1, 2, 112.3403, 48.75851, 23070063
1, 2, 126.4546, 2.859619, 30403974
1, 2, 19.42041, 2.769547, 21332039
1, 3, 68.4752, 11.73947, 21468429
1, 3, 66.56035, 4.098602, 24132131
1, 3, 85.98558, 14.66681, 25471521
1, 4, 164.5929, 76.22157, 25596177
1, 4, 65.15198, 6.962975, 21198186
1, 4, 30.51455, 0.8875122, 35741078
1, 5, 48.14779, 56.72315, 23468572
1, 5, 161.2864, 32.75009, 22670069
1, 5, 105.6062, 21.94891, 31621753
===
1, 10, -3.203933, 32803833
1, 20, -7.69065, 35071099
1, 30, -13.00615, 48668832
1, 40, -15.70685, 63736648
1, 40, -13.95109, 64669913
1, 30, -9.372749, 54667299
1, 20, -8.079604, 39606718
1, 10, -3.001564, 28271221
===
2, 0, 58.89615, 7.942902, 24936216
2, 0, 77.12326, 16.07578, 24531514
2, 0, 18.40213, 3.446289, 16665266
2, 1, 169.4053, 0.2163391, 28264524
2, 1, 32.4145, 15.83721, 15868758
2, 1, 32.18001, 33.63543, 17076158
2, 2, 93.46533, 11.70427, 21068039
2, 2, 41.15884, 29.03745, 17205059
2, 2, 104.9091, 8.8526, 20265645
2, 3, 45.36391, 2.549957, 15607413
2, 3, 133.6688, 0.2232056, 19597245
2, 3, 88.85483, 0.9179993, 19334365
2, 4, 39.15044, 11.15195, 14268473
2, 4, 42.63462, 27.23792, 21196480
2, 4, 129.3592, 0.4664764, 24004824
2, 5, 48.61194, 14.03133, 21599407
2, 5, 101.4155, 37.75108, 28129184
2, 5, 160.5861, 21.59254, 33601611
===
2, 10, -9.617515, 25199654
2, 30, 27.4473, 47728370
2, 20, 20.67988, 34267092
2, 40, 54.40575, 62134290
2, 30, 40.59588, 49204512
2, 20, 17.12489, 34534470
2, 10, 5.3671, 23730552
2, 40, 60.82339, 71471384
===
