trial number, correct angle (degrees), angle diff (degrees), latency (ticks)
1, 0, 40.88599, 8.543365, 24789499
1, 0, 38.73734, 28.4855, 29067425
1, 0, 57.84357, 19.4942, 26932118
1, 1, 65.96486, 22.58261, 32798187
1, 1, 31.954, 1.178909, 23996900
1, 1, 166.5518, 2.016846, 32932200
1, 2, 89.2558, 21.79449, 27739622
1, 2, 55.77385, 5.09552, 22404618
1, 2, 77.96466, 33.68555, 19600211
1, 3, 71.37057, 3.200546, 23063673
1, 3, 157.4979, 63.62469, 36268741
1, 3, 67.2901, 17.49522, 27598278
1, 4, 117.7341, 4.556747, 28934056
1, 4, 30.08667, 7.68277, 21603454
1, 4, 51.92362, 18.07557, 24665478
1, 5, 87.64049, 54.98655, 23867756
1, 5, 141.0596, 33.9971, 23064148
1, 5, 34.30275, 3.44072, 23601883
===
1, 30, -1.391598, 87592833
1, 40, -13.30189, 66132686
1, 10, -1.281855, 30530412
1, 20, -5.072699, 42401836
1, 10, -0.2631855, 34798098
1, 20, -2.021355, 56400870
1, 40, -9.807768, 58398749
1, 30, -4.153908, 67335735
===
0, 0, 28.41533, 7.842117, 32136191
0, 0, 75.45209, 21.17102, 32402779
0, 0, 168.1331, 24.71411, 39061527
0, 1, 158.9676, 33.34172, 22803113
0, 1, 47.31037, 1.877983, 21878112
0, 1, 100.1624, 31.97533, 28121140
0, 2, 84.8584, 6.136414, 19996551
0, 2, 46.88451, 3.658722, 19066718
0, 2, 102.4142, 60.84239, 20932296
0, 3, 22.68008, 9.280426, 28537058
0, 3, 25.98096, 11.71085, 30141049
0, 3, 41.62491, 61.10303, 27467499
0, 4, 61.46246, 177.5847, 38938226
0, 4, 158.5656, 27.21805, 21338052
0, 4, 73.58945, 11.9549, 18529949
0, 5, 139.8204, 44.81975, 26929196
0, 5, 46.85596, 0.4861679, 19056269
0, 5, 45.03414, 38.80746, 33320418
===
0, 40, 1.851086, 54402927
0, 30, 1.700312, 48538307
0, 20, 3.906456, 48803232
0, 30, -1.802547, 43200150
0, 40, 19.40561, 61868542
0, 20, 5.041676, 34137213
0, 10, 3.068758, 24000737
0, 10, 3.158042, 29459096
===
2, 0, 15.36327, 4.946308, 12000496
2, 0, 52.16977, 46.82616, 22668343
2, 0, 143.4886, 9.06189, 42399372
2, 1, 167.5551, 61.43857, 22130140
2, 1, 60.76636, 18.0934, 37465750
2, 1, 61.49641, 10.1385, 16131697
2, 2, 87.78717, 14.32813, 23327137
2, 2, 50.83508, 2.571075, 17597452
2, 2, 79.69287, 28.71457, 22533057
2, 3, 40.83264, 14.61063, 17865495
2, 3, 46.72305, 1.313873, 20535655
2, 3, 62.62097, 8.284943, 22930022
2, 4, 34.63499, 10.71185, 18133789
2, 4, 49.46402, 30.45297, 22928369
2, 4, 122.5521, 169.063, 28399428
2, 5, 146.0729, 2.015228, 21599722
2, 5, 90.71465, 56.95123, 19604162
2, 5, 37.97388, 68.94514, 39735567
===
2, 30, 4.828434, 28534032
2, 10, 4.206434, 25466378
2, 10, 6.083261, 22399318
2, 30, 8.271656, 41867022
2, 40, 19.75937, 37068055
2, 20, 5.646212, 25597244
2, 40, 7.950314, 37464846
2, 20, 9.217443, 26263354
===
