trial number, correct angle (degrees), angle diff (degrees), latency (ticks)
0, 0, 176.2306, 176.235, 1325793
0, 0, 128.6775, 128.6818, 1200170
redoing 1
0, 0, 158.5586, 158.5605, 3198584
0, 0, 176.2136, 176.208, 1733518
0, 0, 128.7091, 128.7137, 1467338
0, 1, 6.13945, 6.144127, 1682603
0, 0, 158.5884, 158.5835, 1594530
0, 1, 176.1903, 176.1952, 1779997
0, 1, 128.7149, 128.7178, 1331577
0, 2, 128.716, 128.7161, 1463164
0, 2, 158.5879, 158.5888, 1332818
0, 2, 6.147385, 6.144615, 1198232
0, 3, 176.2014, 176.2025, 1600602
0, 3, 6.142174, 6.143585, 1464138
0, 3, 114.1131, 114.1132, 1466418
0, 4, 52.75546, 52.75652, 1601029
0, 4, 6.138786, 6.138092, 1597270
0, 4, 114.1261, 114.1278, 1733713
0, 5, 128.6897, 128.6931, 1737809
0, 5, 114.1359, 114.1397, 1464430
0, 5, 176.2169, 176.2172, 1336492
===
0, 20, -20, 1332274
0, 20, -20, 1201294
0, 40, -40, 1063312
0, 30, -30, 1330213
0, 40, -40, 1599373
0, 30, -30, 1329528
0, 10, -10, 1461761
0, 10, -10, 2802884
===
